Folder: EngSci/PHY327/FTIR

Note: README.md
# EngSci
My notes (starting from) 2<sup>nd</sup> Year Engineering Science at the University of Toronto. Includes funny electives.

#### Note

*Edit: This is just for 拋磚引玉, because I don't understand enough of lectures now in 3<sup>rd</sup> year to make good notes.*

Things I find obvious are not included in the notes. Things I don't find obvious are. What I think is obvious may not coincide with what you thing is obvious, and vice versa. Feel free to submit pull requests (I make a lot of typos).

File: ldpe.csv
3.996813e+002,0.000000e+000
4.117344e+002,6.519503e-003
4.237876e+002,1.065300e-002
4.358407e+002,1.187656e-002
4.478938e+002,8.614505e-003
4.599469e+002,4.530943e-003
4.720000e+002,7.304686e-003
4.840531e+002,2.684016e-003
4.961062e+002,6.483582e-003
5.081594e+002,5.651910e-003
5.202125e+002,6.542174e-003
5.322656e+002,6.342887e-003
5.443187e+002,5.290633e-003
5.563718e+002,8.668787e-003
5.684249e+002,4.514236e-003
5.804780e+002,6.151724e-003
5.925311e+002,4.928617e-003
6.045842e+002,5.597399e-003
6.166374e+002,6.110154e-003
6.286905e+002,5.196865e-003
6.407436e+002,6.310309e-003
6.527968e+002,7.054161e-003
6.648499e+002,7.225306e-003
6.769030e+002,9.038096e-003
6.889561e+002,8.222458e-003
7.010092e+002,1.506847e-002
7.130623e+002,8.602713e-002
7.251154e+002,7.042093e-002
7.371685e+002,1.976312e-002
7.492216e+002,1.187121e-002
7.612748e+002,9.361301e-003
7.733279e+002,1.044449e-002
7.853810e+002,7.654289e-003
7.974341e+002,8.260109e-003
8.094872e+002,7.199601e-003
8.215403e+002,5.869015e-003
8.335934e+002,5.897060e-003
8.456465e+002,5.878117e-003
8.576996e+002,5.761960e-003
8.697527e+002,6.159353e-003
8.818059e+002,6.751379e-003
8.938590e+002,6.425234e-003
9.059121e+002,6.801895e-003
9.179652e+002,6.451633e-003
9.300183e+002,5.762900e-003
9.420714e+002,6.087305e-003
9.541246e+002,6.785841e-003
9.661777e+002,6.342685e-003
9.782308e+002,6.375568e-003
9.902839e+002,6.714194e-003
1.002337e+003,7.246598e-003
1.014390e+003,8.079645e-003
1.026443e+003,8.002418e-003
1.038496e+003,8.255754e-003
1.050549e+003,9.216997e-003
1.062603e+003,9.450114e-003
1.074656e+003,9.668924e-003
1.086709e+003,9.858185e-003
1.098762e+003,9.206404e-003
1.110815e+003,9.021080e-003
1.122868e+003,8.973315e-003
1.134921e+003,8.862246e-003
1.146974e+003,8.169716e-003
1.159027e+003,8.394637e-003
1.171081e+003,8.412508e-003
1.183134e+003,8.158675e-003
1.195187e+003,8.879763e-003
1.207240e+003,8.166272e-003
1.219293e+003,8.011902e-003
1.231346e+003,8.100440e-003
1.243399e+003,8.847434e-003
1.255452e+003,9.322470e-003
1.267505e+003,9.623900e-003
1.279559e+003,1.007133e-002
1.291612e+003,1.119675e-002
1.303665e+003,1.231650e-002
1.315718e+003,1.087078e-002
1.327771e+003,9.613703e-003
1.339824e+003,1.125945e-002
1.351877e+003,1.431588e-002
1.363930e+003,1.649476e-002
1.375984e+003,1.918358e-002
1.388037e+003,9.203459e-003
1.400090e+003,8.340727e-003
1.412143e+003,9.755699e-003
1.424196e+003,1.299762e-002
1.436249e+003,2.486675e-002
1.448302e+003,3.602526e-002
1.460355e+003,1.041723e-001
1.472408e+003,1.390632e-001
1.484461e+003,1.203837e-002
1.496515e+003,8.120020e-003
1.508568e+003,6.662948e-003
1.520621e+003,6.304258e-003
1.532674e+003,6.072151e-003
1.544727e+003,5.747321e-003
1.556780e+003,5.245658e-003
1.568833e+003,5.111834e-003
1.580886e+003,5.255115e-003
1.592939e+003,5.432229e-003
1.604993e+003,5.603944e-003
1.617046e+003,5.889771e-003
1.629099e+003,7.778205e-003
1.641152e+003,9.635757e-003
1.653205e+003,8.330527e-003
1.665258e+003,7.964451e-003
1.677311e+003,6.251278e-003
1.689365e+003,5.605085e-003
1.701417e+003,5.791609e-003
1.713471e+003,6.282070e-003
1.725524e+003,5.887185e-003
1.737577e+003,4.639871e-003
1.749630e+003,3.983730e-003
1.761683e+003,3.356226e-003
1.773736e+003,2.734628e-003
1.785789e+003,2.515518e-003
1.797843e+003,2.621509e-003
1.809896e+003,2.491224e-003
1.821949e+003,1.662797e-003
1.834002e+003,1.412579e-003
1.846055e+003,1.550655e-003
1.858108e+003,7.190146e-006
1.870161e+003,1.243942e-003
1.882214e+003,1.379405e-003
1.894267e+003,1.569975e-003
1.906321e+003,2.527549e-003
1.918374e+003,1.136260e-003
1.930427e+003,-2.912168e-004
1.942480e+003,-1.016786e-003
1.954533e+003,-2.343601e-004
1.966586e+003,4.155007e-004
1.978639e+003,7.003851e-003
1.990692e+003,-1.598555e-003
2.002745e+003,-2.686465e-003
2.014799e+003,-3.595493e-003
2.026852e+003,-7.568175e-004
2.038905e+003,1.940849e-003
2.050958e+003,-8.048086e-004
2.063011e+003,4.545273e-003
2.075064e+003,1.681889e-003
2.087117e+003,1.404800e-003
2.099170e+003,8.459734e-004
2.111223e+003,1.086166e-003
2.123277e+003,1.223872e-003
2.135330e+003,-3.283459e-005
2.147383e+003,9.593283e-004
2.159436e+003,1.806176e-003
2.171489e+003,-1.962594e-003
2.183542e+003,2.095940e-003
2.195595e+003,-3.006867e-004
2.207648e+003,1.625978e-003
2.219701e+003,7.214299e-004
2.231755e+003,1.870596e-003
2.243808e+003,9.638445e-004
2.255861e+003,1.610347e-003
2.267914e+003,4.420200e-003
2.279967e+003,4.167351e-003
2.292020e+003,3.925082e-003
2.304073e+003,3.562432e-003
2.316126e+003,4.155776e-003
2.328179e+003,3.751623e-003
2.340233e+003,3.156727e-003
2.352286e+003,1.841346e-003
2.364339e+003,2.502754e-003
2.376392e+003,1.464805e-003
2.388445e+003,1.661134e-003
2.400498e+003,2.202928e-003
2.412551e+003,2.714389e-003
2.424604e+003,2.239396e-003
2.436657e+003,2.921825e-003
2.448711e+003,2.761637e-003
2.460764e+003,2.823998e-003
2.472817e+003,2.643544e-003
2.484870e+003,2.144852e-003
2.496923e+003,2.480493e-003
2.508976e+003,2.765372e-003
2.521029e+003,3.542655e-003
2.533083e+003,3.080970e-003
2.545135e+003,3.610340e-003
2.557189e+003,3.773815e-003
2.569242e+003,4.123931e-003
2.581295e+003,4.877782e-003
2.593348e+003,5.141673e-003
2.605401e+003,6.103064e-003
2.617454e+003,6.516880e-003
2.629507e+003,7.462176e-003
2.641561e+003,8.226037e-003
2.653614e+003,8.165293e-003
2.665667e+003,7.521473e-003
2.677720e+003,7.416335e-003
2.689773e+003,7.376802e-003
2.701826e+003,6.955197e-003
2.713879e+003,7.490020e-003
2.725932e+003,7.766264e-003
2.737985e+003,8.452441e-003
2.750039e+003,8.589089e-003
2.762092e+003,8.863869e-003
2.774145e+003,1.011559e-002
2.786198e+003,1.261998e-002
2.798251e+003,1.662085e-002
2.810304e+003,2.246216e-002
2.822357e+003,3.454965e-002
2.834410e+003,8.381976e-002
2.846463e+003,4.697870e-001
2.858517e+003,1.359540e-001
2.870570e+003,7.283080e-002
2.882623e+003,1.086544e-001
2.894676e+003,1.934033e-001
2.906729e+003,3.417301e-001
2.918782e+003,4.488985e-001
2.930835e+003,1.670083e-001
2.942888e+003,6.275022e-002
2.954941e+003,3.837360e-002
2.966995e+003,2.526751e-002
2.979048e+003,1.369017e-002
2.991101e+003,9.739875e-003
3.003154e+003,7.910425e-003
3.015207e+003,6.957823e-003
3.027260e+003,6.330683e-003
3.039313e+003,5.975627e-003
3.051366e+003,4.950803e-003
3.063419e+003,4.610167e-003
3.075473e+003,4.597275e-003
3.087526e+003,4.472622e-003
3.099579e+003,4.014161e-003
3.111632e+003,3.421310e-003
3.123685e+003,3.357061e-003
3.135738e+003,3.289883e-003
3.147791e+003,3.300934e-003
3.159844e+003,3.655046e-003
3.171897e+003,3.960357e-003
3.183951e+003,4.553610e-003
3.196004e+003,4.612210e-003
3.208057e+003,4.039578e-003
3.220110e+003,4.135873e-003
3.232163e+003,3.782238e-003
3.244216e+003,3.345374e-003
3.256269e+003,4.118746e-003
3.268323e+003,3.691000e-003
3.280375e+003,3.997474e-003
3.292429e+003,3.944474e-003
3.304482e+003,3.958819e-003
3.316535e+003,3.899170e-003
3.328588e+003,4.236539e-003
3.340641e+003,4.484841e-003
3.352694e+003,5.086287e-003
3.364747e+003,4.863441e-003
3.376800e+003,4.769765e-003
3.388854e+003,5.168564e-003
3.400907e+003,4.262236e-003
3.412960e+003,3.868881e-003
3.425013e+003,3.433032e-003
3.437066e+003,3.440513e-003
3.449119e+003,3.717066e-003
3.461172e+003,2.985609e-003
3.473225e+003,2.967727e-003
3.485278e+003,2.712122e-003
3.497332e+003,2.462199e-003
3.509385e+003,2.170859e-003
3.521438e+003,2.571710e-003
3.533491e+003,2.054224e-003
3.545544e+003,2.042273e-003
3.557597e+003,1.922910e-003
3.569650e+003,2.068440e-003
3.581703e+003,2.460133e-003
3.593756e+003,1.851429e-003
3.605810e+003,2.811191e-003
3.617863e+003,2.935168e-003
3.629916e+003,2.731761e-003
3.641969e+003,2.577843e-003
3.654022e+003,2.255516e-003
3.666075e+003,2.247489e-003
3.678128e+003,1.622353e-003
3.690181e+003,2.031420e-003
3.702234e+003,1.832129e-003
3.714288e+003,1.875720e-003
3.726341e+003,2.256848e-003
3.738394e+003,2.071403e-003
3.750447e+003,1.959388e-003
3.762500e+003,2.107293e-003
3.774553e+003,1.900113e-003
3.786606e+003,1.786712e-003
3.798659e+003,1.875720e-003
3.810712e+003,2.100801e-003
3.822766e+003,2.358312e-003
3.834819e+003,1.970971e-003
3.846872e+003,2.078494e-003
3.858925e+003,2.158471e-003
3.870978e+003,2.490890e-003
3.883031e+003,2.156873e-003
3.895084e+003,2.254416e-003
3.907137e+003,2.398624e-003
3.919190e+003,2.375036e-003
3.931244e+003,2.364009e-003
3.943297e+003,2.147582e-003
3.955350e+003,2.520883e-003
3.967403e+003,2.216549e-003
3.979456e+003,2.295785e-003
3.991509e+003,2.247256e-003
4.000188e+003,2.224742e-003